Frequency (Hz)	Level (dB)
46.875000	-58.861141
93.750000	-53.728794
140.625000	-57.777748
187.500000	-64.134445
234.375000	-63.941658
281.250000	-66.224052
328.125000	-66.262535
375.000000	-66.778542
421.875000	-65.721039
468.750000	-62.428204
515.625000	-60.853863
562.500000	-62.316097
609.375000	-61.781471
656.250000	-61.398834
703.125000	-63.147930
750.000000	-68.479507
796.875000	-71.334869
843.750000	-71.030983
890.625000	-72.705376
937.500000	-69.568977
984.375000	-69.184792
1031.250000	-68.247932
1078.125000	-67.024956
1125.000000	-67.550552
1171.875000	-70.514404
1218.750000	-71.752487
1265.625000	-72.437340
1312.500000	-71.891220
1359.375000	-71.632973
1406.250000	-70.556961
1453.125000	-67.704750
1500.000000	-66.977272
1546.875000	-71.088638
1593.750000	-72.452263
1640.625000	-69.993446
1687.500000	-69.904465
1734.375000	-73.262245
1781.250000	-74.651566
1828.125000	-74.691566
1875.000000	-75.059891
1921.875000	-74.802277
1968.750000	-71.426453
2015.625000	-70.787628
2062.500000	-70.776146
2109.375000	-68.904572
2156.250000	-68.005646
2203.125000	-70.512901
2250.000000	-72.008492
2296.875000	-72.627930
2343.750000	-73.210907
2390.625000	-73.377060
2437.500000	-74.703247
2484.375000	-74.553947
2531.250000	-74.058365
2578.125000	-75.206696
2625.000000	-75.920181
2671.875000	-76.751831
2718.750000	-76.671303
2765.625000	-75.686684
2812.500000	-74.507393
2859.375000	-73.453430
2906.250000	-73.820839
2953.125000	-73.161285
3000.000000	-72.216583
3046.875000	-72.783676
3093.750000	-73.938965
3140.625000	-74.110870
3187.500000	-72.716423
3234.375000	-72.708328
3281.250000	-73.798126
3328.125000	-72.243187
3375.000000	-72.382240
3421.875000	-70.556480
3468.750000	-71.402855
3515.625000	-74.332214
3562.500000	-76.697624
3609.375000	-75.920464
3656.250000	-74.752945
3703.125000	-75.336044
3750.000000	-76.026993
3796.875000	-76.091255
3843.750000	-76.670906
3890.625000	-78.027702
3937.500000	-78.100586
3984.375000	-77.530373
4031.250000	-76.966400
4078.125000	-76.863716
4125.000000	-77.533470
4171.875000	-78.735725
4218.750000	-78.609497
4265.625000	-78.703819
4312.500000	-80.158737
4359.375000	-80.120285
4406.250000	-79.667084
4453.125000	-79.622559
4500.000000	-78.824074
4546.875000	-78.901665
4593.750000	-80.086243
4640.625000	-80.595154
4687.500000	-79.878616
4734.375000	-78.187485
4781.250000	-77.653595
4828.125000	-78.031982
4875.000000	-78.177696
4921.875000	-78.984001
4968.750000	-79.998657
5015.625000	-80.749939
5062.500000	-80.246178
5109.375000	-79.500023
5156.250000	-80.627617
5203.125000	-81.705627
5250.000000	-80.912712
5296.875000	-80.197830
5343.750000	-81.348892
5390.625000	-80.597244
5437.500000	-79.247917
5484.375000	-79.336472
5531.250000	-79.777527
5578.125000	-80.428185
5625.000000	-81.851791
5671.875000	-81.230621
5718.750000	-81.134865
5765.625000	-81.328346
5812.500000	-81.212975
5859.375000	-80.409973
5906.250000	-79.782181
5953.125000	-80.009712
6000.000000	-79.196953
6046.875000	-78.885895
6093.750000	-78.481598
6140.625000	-78.964798
6187.500000	-79.513268
6234.375000	-80.370193
6281.250000	-79.876915
6328.125000	-80.389755
6375.000000	-81.261925
6421.875000	-81.880516
6468.750000	-82.282211
6515.625000	-83.070229
6562.500000	-83.389793
6609.375000	-83.690102
6656.250000	-83.882935
6703.125000	-84.098091
6750.000000	-84.289070
6796.875000	-84.281052
6843.750000	-83.779076
6890.625000	-83.287506
6937.500000	-83.116203
6984.375000	-82.548279
7031.250000	-82.523514
7078.125000	-83.440887
7125.000000	-84.537247
7171.875000	-85.157951
7218.750000	-85.786049
7265.625000	-86.769356
7312.500000	-87.353142
7359.375000	-88.055183
7406.250000	-88.058159
7453.125000	-87.740601
7500.000000	-87.668701
7546.875000	-87.976830
7593.750000	-88.453583
7640.625000	-89.000969
7687.500000	-89.516876
7734.375000	-90.092712
7781.250000	-90.674026
7828.125000	-90.853958
7875.000000	-91.162415
7921.875000	-91.196625
7968.750000	-91.170471
8015.625000	-90.880142
8062.500000	-90.888588
8109.375000	-91.166977
8156.250000	-91.829170
8203.125000	-92.254539
8250.000000	-92.236809
8296.875000	-92.525803
8343.750000	-92.550949
8390.625000	-92.512924
8437.500000	-92.614609
8484.375000	-92.711037
8531.250000	-93.237289
8578.125000	-93.294151
8625.000000	-93.155128
8671.875000	-93.021606
8718.750000	-93.150116
8765.625000	-93.229088
8812.500000	-93.803398
8859.375000	-94.138802
8906.250000	-94.381325
8953.125000	-94.378433
9000.000000	-94.546265
9046.875000	-94.702324
9093.750000	-94.861832
9140.625000	-94.667580
9187.500000	-94.740791
9234.375000	-94.702164
9281.250000	-94.500404
9328.125000	-94.013733
9375.000000	-92.973274
9421.875000	-92.730431
9468.750000	-93.347336
9515.625000	-93.303314
9562.500000	-93.027840
9609.375000	-92.856575
9656.250000	-93.030258
9703.125000	-92.905228
9750.000000	-92.841980
9796.875000	-92.359421
9843.750000	-91.543465
9890.625000	-92.066551
9937.500000	-92.567734
9984.375000	-92.959274
10031.250000	-93.355957
10078.125000	-93.523674
10125.000000	-94.025337
10171.875000	-94.292458
10218.750000	-94.045158
10265.625000	-94.056313
10312.500000	-93.951523
10359.375000	-94.139839
10406.250000	-94.354668
10453.125000	-93.971802
10500.000000	-93.555321
10546.875000	-93.847069
10593.750000	-93.439087
10640.625000	-92.943352
10687.500000	-92.363426
10734.375000	-92.443092
10781.250000	-92.435287
10828.125000	-92.262115
10875.000000	-92.265457
10921.875000	-92.172630
10968.750000	-92.517082
11015.625000	-92.767639
11062.500000	-92.658508
11109.375000	-93.435410
11156.250000	-93.395088
11203.125000	-93.053185
11250.000000	-93.293732
11296.875000	-93.235680
11343.750000	-93.144875
11390.625000	-92.877663
11437.500000	-92.481689
11484.375000	-92.424492
11531.250000	-92.833603
11578.125000	-92.737541
11625.000000	-92.636871
11671.875000	-92.749496
11718.750000	-92.866638
11765.625000	-92.786331
11812.500000	-92.643631
11859.375000	-92.275948
11906.250000	-92.318520
11953.125000	-92.158867
12000.000000	-92.029312
12046.875000	-92.295914
12093.750000	-92.534859
12140.625000	-92.350349
12187.500000	-91.873062
12234.375000	-91.925583
12281.250000	-91.953438
12328.125000	-91.774742
12375.000000	-91.863914
12421.875000	-92.053795
12468.750000	-92.237381
12515.625000	-91.972450
12562.500000	-92.041695
12609.375000	-91.958069
12656.250000	-92.400818
12703.125000	-92.367531
12750.000000	-92.465233
12796.875000	-92.585983
12843.750000	-92.517769
12890.625000	-92.178276
12937.500000	-92.261131
12984.375000	-92.569176
13031.250000	-92.845268
13078.125000	-92.828613
13125.000000	-92.055588
13171.875000	-91.419670
13218.750000	-91.266129
13265.625000	-91.511581
13312.500000	-91.963249
13359.375000	-91.860603
13406.250000	-92.086662
13453.125000	-92.075485
13500.000000	-92.157608
13546.875000	-92.128532
13593.750000	-92.224518
13640.625000	-92.653580
13687.500000	-92.239098
13734.375000	-91.964828
13781.250000	-91.815819
13828.125000	-91.428009
13875.000000	-91.200378
13921.875000	-91.303185
13968.750000	-91.467888
14015.625000	-91.383690
14062.500000	-91.290337
14109.375000	-91.300919
14156.250000	-91.433716
14203.125000	-91.751999
14250.000000	-91.788132
14296.875000	-91.505302
14343.750000	-91.210869
14390.625000	-91.173004
14437.500000	-91.484413
14484.375000	-91.450851
14531.250000	-91.713905
14578.125000	-91.841782
14625.000000	-91.998756
14671.875000	-91.829880
14718.750000	-91.826668
14765.625000	-91.515625
14812.500000	-91.536354
14859.375000	-91.254257
14906.250000	-91.542175
14953.125000	-91.502319
15000.000000	-91.379211
15046.875000	-91.498947
15093.750000	-91.455246
15140.625000	-91.278053
15187.500000	-91.351105
15234.375000	-91.635818
15281.250000	-91.656540
15328.125000	-91.250900
15375.000000	-90.760681
15421.875000	-90.305267
15468.750000	-90.098007
15515.625000	-90.035759
15562.500000	-90.186020
15609.375000	-90.438911
15656.250000	-90.687492
15703.125000	-90.848007
15750.000000	-90.684418
15796.875000	-90.684097
15843.750000	-90.940536
15890.625000	-90.888741
15937.500000	-90.419510
15984.375000	-90.344414
16031.250000	-90.856873
16078.125000	-90.812965
16125.000000	-90.525764
16171.875000	-90.167641
16218.750000	-89.953789
16265.625000	-89.980446
16312.500000	-90.028206
16359.375000	-90.277596
16406.250000	-90.099236
16453.125000	-89.629578
16500.000000	-89.708878
16546.875000	-89.847115
16593.750000	-89.952065
16640.625000	-89.741753
16687.500000	-89.659027
16734.375000	-89.438309
16781.250000	-88.784355
16828.125000	-88.479233
16875.000000	-88.327560
16921.875000	-88.601952
16968.750000	-88.631927
17015.625000	-88.536736
17062.500000	-88.719383
17109.375000	-88.299393
17156.250000	-88.063820
17203.125000	-88.251045
17250.000000	-88.510307
17296.875000	-87.648483
17343.750000	-86.837379
17390.625000	-86.856400
17437.500000	-87.169815
17484.375000	-87.364998
17531.250000	-87.062347
17578.125000	-87.056572
17625.000000	-87.304535
17671.875000	-87.333054
17718.750000	-86.890213
17765.625000	-86.307732
17812.500000	-85.818916
17859.375000	-85.444534
17906.250000	-85.453125
17953.125000	-85.343422
18000.000000	-85.025558
18046.875000	-84.910294
18093.750000	-84.901642
18140.625000	-84.537102
18187.500000	-82.971840
18234.375000	-83.360855
18281.250000	-83.877563
18328.125000	-84.064049
18375.000000	-84.268890
18421.875000	-83.957756
18468.750000	-84.388870
18515.625000	-84.573853
18562.500000	-83.937752
18609.375000	-83.496498
18656.250000	-83.217400
18703.125000	-83.840591
18750.000000	-85.273743
18796.875000	-87.667549
18843.750000	-91.469406
18890.625000	-97.485298
18937.500000	-104.661201
18984.375000	-112.000572
19031.250000	-119.928856
19078.125000	-126.716125
19125.000000	-132.318741
19171.875000	-136.739899
19218.750000	-139.413345
19265.625000	-141.440308
19312.500000	-143.569000
19359.375000	-147.291946
19406.250000	-151.461639
19453.125000	-155.065704
19500.000000	-156.800934
19546.875000	-159.033783
19593.750000	-160.159958
19640.625000	-161.108078
19687.500000	-162.950027
19734.375000	-165.703308
19781.250000	-169.154984
19828.125000	-171.211807
19875.000000	-171.056808
19921.875000	-170.492203
19968.750000	-170.425705
20015.625000	-172.888962
20062.500000	-175.037476
20109.375000	-174.094849
20156.250000	-171.014252
20203.125000	-170.239563
20250.000000	-173.426865
20296.875000	-174.896500
20343.750000	-174.320053
20390.625000	-174.914581
20437.500000	-170.567841
20484.375000	-168.215363
20531.250000	-171.708313
20578.125000	-174.167664
20625.000000	-173.887512
20671.875000	-173.952652
20718.750000	-174.098022
20765.625000	-173.931931
20812.500000	-175.686996
20859.375000	-172.050293
20906.250000	-167.633774
20953.125000	-169.998581
21000.000000	-173.510345
21046.875000	-174.810822
21093.750000	-175.531418
21140.625000	-175.831467
21187.500000	-175.971176
21234.375000	-176.414825
21281.250000	-177.726776
21328.125000	-177.827835
21375.000000	-175.822021
21421.875000	-174.502090
21468.750000	-170.546982
21515.625000	-170.824280
21562.500000	-174.346252
21609.375000	-176.067581
21656.250000	-174.160934
21703.125000	-172.909912
21750.000000	-175.107178
21796.875000	-174.520554
21843.750000	-173.214584
21890.625000	-173.634293
21937.500000	-176.069321
21984.375000	-174.204788
22031.250000	-175.648712
22078.125000	-177.107010
22125.000000	-174.788086
22171.875000	-176.149124
22218.750000	-177.323959
22265.625000	-178.048965
22312.500000	-174.233978
22359.375000	-168.751205
22406.250000	-167.025711
22453.125000	-171.038254
22500.000000	-173.538025
22546.875000	-172.376450
22593.750000	-167.570770
22640.625000	-170.494644
22687.500000	-175.264267
22734.375000	-174.535324
22781.250000	-176.191605
22828.125000	-177.073334
22875.000000	-174.578262
22921.875000	-175.739380
22968.750000	-175.563828
23015.625000	-176.435364
23062.500000	-174.691376
23109.375000	-169.440720
23156.250000	-168.528778
23203.125000	-170.859695
23250.000000	-174.725616
23296.875000	-174.880554
23343.750000	-174.236923
23390.625000	-174.147552
23437.500000	-176.868423
23484.375000	-172.957520
23531.250000	-172.767929
23578.125000	-173.267670
23625.000000	-173.485901
23671.875000	-176.219254
23718.750000	-178.257324
23765.625000	-178.430695
23812.500000	-177.692841
23859.375000	-168.805588
23906.250000	-163.865189
23953.125000	-167.908234
